"Ag2BiI5_X - RawData"
"Wavelength nm.","T%"
400.00,0.03780
401.00,0.03703
402.00,0.03674
403.00,0.03885
404.00,0.03915
405.00,0.04108
406.00,0.04136
407.00,0.04158
408.00,0.03959
409.00,0.04115
410.00,0.04192
411.00,0.04267
412.00,0.04326
413.00,0.04278
414.00,0.04247
415.00,0.04447
416.00,0.04339
417.00,0.04317
418.00,0.04503
419.00,0.04556
420.00,0.04429
421.00,0.04534
422.00,0.04590
423.00,0.04672
424.00,0.04890
425.00,0.05168
426.00,0.05499
427.00,0.05851
428.00,0.06403
429.00,0.06870
430.00,0.07011
431.00,0.07675
432.00,0.07775
433.00,0.08044
434.00,0.08335
435.00,0.08615
436.00,0.08928
437.00,0.08964
438.00,0.09271
439.00,0.09397
440.00,0.09605
441.00,0.09748
442.00,0.10027
443.00,0.10125
444.00,0.10351
445.00,0.10583
446.00,0.10976
447.00,0.10923
448.00,0.11185
449.00,0.11501
450.00,0.11637
451.00,0.12025
452.00,0.12122
453.00,0.12571
454.00,0.12573
455.00,0.12814
456.00,0.13108
457.00,0.13273
458.00,0.13395
459.00,0.13847
460.00,0.14047
461.00,0.14380
462.00,0.14621
463.00,0.14782
464.00,0.15267
465.00,0.15465
466.00,0.15576
467.00,0.15883
468.00,0.16104
469.00,0.16665
470.00,0.16766
471.00,0.17063
472.00,0.17334
473.00,0.17760
474.00,0.17847
475.00,0.18075
476.00,0.18329
477.00,0.18965
478.00,0.18787
479.00,0.19187
480.00,0.19374
481.00,0.19850
482.00,0.19880
483.00,0.20447
484.00,0.20748
485.00,0.21070
486.00,0.21453
487.00,0.21503
488.00,0.22006
489.00,0.22319
490.00,0.22560
491.00,0.23052
492.00,0.23190
493.00,0.23442
494.00,0.23749
495.00,0.23895
496.00,0.24477
497.00,0.24814
498.00,0.25121
499.00,0.25609
500.00,0.26011
501.00,0.26426
502.00,0.26747
503.00,0.27203
504.00,0.27379
505.00,0.27841
506.00,0.28157
507.00,0.28411
508.00,0.29002
509.00,0.29552
510.00,0.29817
511.00,0.30345
512.00,0.30845
513.00,0.31148
514.00,0.31556
515.00,0.32092
516.00,0.32631
517.00,0.32776
518.00,0.33241
519.00,0.33688
520.00,0.33917
521.00,0.34469
522.00,0.34997
523.00,0.35687
524.00,0.35971
525.00,0.36376
526.00,0.36807
527.00,0.37162
528.00,0.37568
529.00,0.37811
530.00,0.38431
531.00,0.39114
532.00,0.39346
533.00,0.39380
534.00,0.40363
535.00,0.40536
536.00,0.40912
537.00,0.41205
538.00,0.41839
539.00,0.42068
540.00,0.42686
541.00,0.42790
542.00,0.43387
543.00,0.43479
544.00,0.44080
545.00,0.44494
546.00,0.44663
547.00,0.45043
548.00,0.45560
549.00,0.46005
550.00,0.46180
551.00,0.46939
552.00,0.46921
553.00,0.47548
554.00,0.47806
555.00,0.48440
556.00,0.49128
557.00,0.49469
558.00,0.50230
559.00,0.50643
560.00,0.50986
561.00,0.51071
562.00,0.51879
563.00,0.52590
564.00,0.53268
565.00,0.54047
566.00,0.54391
567.00,0.55115
568.00,0.56325
569.00,0.56989
570.00,0.57944
571.00,0.58823
572.00,0.59983
573.00,0.60789
574.00,0.62080
575.00,0.63490
576.00,0.64476
577.00,0.66223
578.00,0.67612
579.00,0.69328
580.00,0.71036
581.00,0.72711
582.00,0.74641
583.00,0.77067
584.00,0.78828
585.00,0.81242
586.00,0.83614
587.00,0.86111
588.00,0.89523
589.00,0.92683
590.00,0.95876
591.00,0.99563
592.00,1.03311
593.00,1.07781
594.00,1.12004
595.00,1.16732
596.00,1.22644
597.00,1.27948
598.00,1.33610
599.00,1.39929
600.00,1.46183
601.00,1.53290
602.00,1.61159
603.00,1.68934
604.00,1.78458
605.00,1.86721
606.00,1.97064
607.00,2.06197
608.00,2.17813
609.00,2.28746
610.00,2.40697
611.00,2.53909
612.00,2.67240
613.00,2.82981
614.00,2.97168
615.00,3.12638
616.00,3.30686
617.00,3.48581
618.00,3.68672
619.00,3.89349
620.00,4.11544
621.00,4.31883
622.00,4.55903
623.00,4.79891
624.00,5.05493
625.00,5.31736
626.00,5.57944
627.00,5.86204
628.00,6.14440
629.00,6.45860
630.00,6.75332
631.00,7.05492
632.00,7.39506
633.00,7.74103
634.00,8.08735
635.00,8.42782
636.00,8.81103
637.00,9.18237
638.00,9.56616
639.00,9.98215
640.00,10.39055
641.00,10.77623
642.00,11.20543
643.00,11.62787
644.00,12.02741
645.00,12.46671
646.00,12.89665
647.00,13.35874
648.00,13.82463
649.00,14.26256
650.00,14.68291
651.00,15.15361
652.00,15.55440
653.00,16.04934
654.00,16.48648
655.00,16.91856
656.00,17.36866
657.00,17.82338
658.00,18.28575
659.00,18.71929
660.00,19.17869
661.00,19.64422
662.00,20.14044
663.00,20.58669
664.00,21.00868
665.00,21.54722
666.00,21.91569
667.00,22.40994
668.00,22.83947
669.00,23.36828
670.00,23.66912
671.00,24.13234
672.00,24.51621
673.00,24.97312
674.00,25.33915
675.00,25.77817
676.00,26.13832
677.00,26.58307
678.00,26.97052
679.00,27.31380
680.00,27.78254
681.00,28.14764
682.00,28.46318
683.00,28.88606
684.00,29.26181
685.00,29.60607
686.00,30.07349
687.00,30.30644
688.00,30.65891
689.00,30.98127
690.00,31.35217
691.00,31.58187
692.00,31.94746
693.00,32.27031
694.00,32.62180
695.00,32.83231
696.00,32.98741
697.00,33.33303
698.00,33.56132
699.00,33.90144
700.00,34.09303
701.00,34.33020
702.00,34.55151
703.00,34.84610
704.00,35.03143
705.00,35.22225
706.00,35.49321
707.00,35.76294
708.00,35.87490
709.00,36.13273
710.00,36.20239
711.00,36.49555
712.00,36.52793
713.00,36.77379
714.00,36.89910
715.00,37.05350
716.00,37.21734
717.00,37.38436
718.00,37.43078
719.00,37.59150
720.00,37.88174
721.00,37.94904
722.00,37.93295
723.00,38.11938
724.00,38.32414
725.00,38.37881
726.00,38.46409
727.00,38.57619
728.00,38.61637
729.00,38.89512
730.00,38.86806
731.00,38.90692
732.00,38.96497
733.00,39.23006
734.00,39.20445
735.00,39.34879
736.00,39.34785
737.00,39.45895
738.00,39.52654
739.00,39.58328
740.00,39.54363
741.00,39.65608
742.00,39.81285
743.00,39.79585
744.00,39.95719
745.00,40.04089
746.00,40.06947
747.00,40.04794
748.00,40.17384
749.00,40.25316
750.00,40.32363
751.00,40.18515
752.00,40.36341
753.00,40.36485
754.00,40.34619
755.00,40.48375
756.00,40.46763
757.00,40.45227
758.00,40.39944
759.00,40.63354
760.00,40.85290
761.00,40.90092
762.00,41.00367
763.00,40.89444
764.00,40.86577
765.00,40.99837
766.00,40.89192
767.00,41.14901
768.00,40.83723
769.00,41.10335
770.00,40.97450
771.00,41.31001
772.00,41.32867
773.00,41.37223
774.00,41.03026
775.00,41.24377
776.00,41.37064
777.00,41.19552
778.00,41.23048
779.00,41.46767
780.00,41.38730
781.00,41.37079
782.00,41.45455
783.00,41.55710
784.00,41.55216
785.00,41.43833
786.00,41.44053
787.00,41.53272
788.00,41.71761
789.00,41.65628
790.00,41.47602
791.00,41.60907
792.00,41.60012
793.00,41.71574
794.00,41.73483
795.00,41.65173
796.00,41.89981
797.00,41.92735
798.00,41.71161
799.00,41.68938
800.00,41.73978
801.00,41.96097
802.00,41.73144
803.00,41.87942
804.00,41.84545
805.00,42.06214
806.00,42.07983
807.00,42.15419
808.00,42.22260
809.00,41.79358
810.00,42.15742
811.00,42.26933
812.00,42.28441
813.00,42.24342
814.00,42.08375
815.00,42.05293
816.00,42.25558
817.00,42.27491
818.00,42.43049
819.00,42.32621
820.00,42.79269
821.00,42.18435
822.00,42.62929
823.00,42.49330
824.00,42.68864
825.00,42.35312
826.00,42.69880
827.00,42.43271
828.00,42.46168
829.00,42.64347
830.00,42.76335
831.00,42.57976
832.00,42.52454
833.00,42.77922
834.00,42.77863
835.00,42.59789
836.00,42.69851
837.00,43.31755
838.00,42.84500
839.00,43.01941
840.00,42.94284
841.00,42.64826
842.00,43.32607
843.00,42.85443
844.00,43.46625
845.00,42.99361
846.00,43.57521
847.00,42.55540
848.00,43.60039
849.00,44.34842
850.00,43.57133
851.00,44.05991
852.00,42.79692
853.00,43.20869
854.00,43.47302
855.00,43.41699
856.00,43.57527
857.00,43.86162
858.00,43.10734
859.00,43.37477
860.00,45.04595
861.00,43.33054
862.00,43.99372
863.00,46.29084
864.00,44.21235
865.00,44.53841
866.00,42.87914
867.00,44.67670
868.00,43.36776
869.00,42.65056
870.00,42.57590
871.00,43.94094
872.00,44.86440
873.00,43.96297
874.00,46.62956
875.00,44.00554
876.00,45.48431
877.00,43.47663
878.00,43.08229
879.00,44.85218
880.00,44.32493
881.00,47.91426
882.00,43.05133
883.00,47.25226
884.00,42.04034
885.00,43.56263
886.00,43.90220
887.00,50.22880
888.00,46.52824
889.00,43.19463
890.00,39.43115
891.00,48.07547
892.00,42.53042
893.00,41.05784
894.00,39.29574
895.00,44.80534
896.00,43.71713
897.00,37.92409
898.00,42.51890
899.00,46.70579
900.00,39.72347
