"CuAgBiI5_VIII - RawData"
"Wavelength nm.","T%"
400.00,0.02056
401.00,0.01991
402.00,0.02037
403.00,0.02108
404.00,0.02185
405.00,0.02098
406.00,0.02115
407.00,0.02131
408.00,0.02238
409.00,0.02289
410.00,0.02149
411.00,0.02213
412.00,0.02365
413.00,0.02397
414.00,0.02307
415.00,0.02290
416.00,0.02398
417.00,0.02243
418.00,0.02145
419.00,0.02215
420.00,0.02264
421.00,0.02387
422.00,0.02455
423.00,0.02544
424.00,0.02795
425.00,0.02854
426.00,0.03081
427.00,0.03043
428.00,0.03401
429.00,0.03467
430.00,0.03477
431.00,0.03565
432.00,0.03819
433.00,0.03797
434.00,0.03875
435.00,0.03974
436.00,0.04082
437.00,0.04207
438.00,0.04268
439.00,0.04482
440.00,0.04465
441.00,0.04573
442.00,0.04753
443.00,0.04829
444.00,0.04932
445.00,0.05068
446.00,0.04970
447.00,0.05083
448.00,0.05312
449.00,0.05337
450.00,0.05630
451.00,0.05551
452.00,0.05688
453.00,0.05862
454.00,0.05913
455.00,0.06095
456.00,0.06105
457.00,0.06274
458.00,0.06481
459.00,0.06630
460.00,0.06574
461.00,0.06762
462.00,0.06978
463.00,0.07047
464.00,0.07272
465.00,0.07443
466.00,0.07522
467.00,0.07664
468.00,0.07689
469.00,0.08005
470.00,0.08040
471.00,0.08211
472.00,0.08458
473.00,0.08663
474.00,0.08758
475.00,0.08948
476.00,0.09050
477.00,0.09260
478.00,0.09385
479.00,0.09532
480.00,0.09642
481.00,0.09846
482.00,0.09927
483.00,0.10029
484.00,0.10213
485.00,0.10400
486.00,0.10799
487.00,0.10930
488.00,0.10846
489.00,0.11234
490.00,0.11386
491.00,0.11623
492.00,0.11808
493.00,0.11865
494.00,0.12035
495.00,0.12325
496.00,0.12389
497.00,0.12389
498.00,0.12789
499.00,0.12873
500.00,0.12930
501.00,0.13040
502.00,0.13228
503.00,0.13483
504.00,0.13699
505.00,0.13765
506.00,0.13955
507.00,0.14032
508.00,0.14113
509.00,0.14442
510.00,0.14544
511.00,0.14653
512.00,0.14897
513.00,0.15097
514.00,0.15123
515.00,0.15272
516.00,0.15547
517.00,0.15536
518.00,0.15777
519.00,0.15829
520.00,0.15736
521.00,0.15976
522.00,0.15937
523.00,0.16241
524.00,0.16387
525.00,0.16212
526.00,0.16356
527.00,0.16554
528.00,0.16480
529.00,0.16758
530.00,0.16438
531.00,0.16755
532.00,0.16869
533.00,0.16726
534.00,0.16986
535.00,0.17069
536.00,0.16933
537.00,0.16915
538.00,0.17086
539.00,0.17193
540.00,0.16966
541.00,0.17090
542.00,0.16981
543.00,0.17034
544.00,0.17041
545.00,0.16916
546.00,0.16920
547.00,0.16917
548.00,0.16882
549.00,0.16699
550.00,0.16772
551.00,0.16740
552.00,0.16794
553.00,0.16807
554.00,0.16733
555.00,0.16604
556.00,0.16394
557.00,0.16686
558.00,0.16551
559.00,0.16515
560.00,0.16701
561.00,0.16581
562.00,0.16654
563.00,0.16655
564.00,0.16703
565.00,0.16895
566.00,0.17035
567.00,0.16984
568.00,0.17234
569.00,0.17396
570.00,0.17715
571.00,0.17888
572.00,0.18322
573.00,0.18313
574.00,0.18844
575.00,0.19133
576.00,0.19283
577.00,0.19773
578.00,0.20329
579.00,0.20917
580.00,0.21246
581.00,0.22351
582.00,0.22919
583.00,0.23673
584.00,0.24643
585.00,0.25649
586.00,0.26707
587.00,0.28064
588.00,0.29359
589.00,0.31083
590.00,0.32542
591.00,0.34478
592.00,0.36963
593.00,0.39263
594.00,0.42194
595.00,0.45070
596.00,0.48068
597.00,0.51812
598.00,0.56253
599.00,0.60341
600.00,0.64839
601.00,0.70660
602.00,0.76658
603.00,0.83284
604.00,0.90353
605.00,0.98445
606.00,1.06966
607.00,1.16146
608.00,1.26334
609.00,1.36641
610.00,1.48288
611.00,1.61568
612.00,1.75241
613.00,1.90450
614.00,2.06037
615.00,2.24453
616.00,2.43128
617.00,2.62306
618.00,2.84331
619.00,3.07279
620.00,3.32649
621.00,3.56975
622.00,3.83908
623.00,4.11110
624.00,4.38248
625.00,4.69726
626.00,5.00446
627.00,5.32695
628.00,5.65623
629.00,5.99261
630.00,6.33206
631.00,6.68020
632.00,7.04015
633.00,7.42348
634.00,7.82515
635.00,8.22066
636.00,8.60713
637.00,9.02193
638.00,9.40510
639.00,9.84258
640.00,10.27854
641.00,10.70063
642.00,11.13753
643.00,11.56044
644.00,11.96903
645.00,12.40967
646.00,12.81138
647.00,13.28038
648.00,13.65958
649.00,14.12343
650.00,14.55132
651.00,14.97208
652.00,15.36052
653.00,15.79915
654.00,16.17051
655.00,16.64572
656.00,17.02562
657.00,17.45314
658.00,17.86376
659.00,18.26813
660.00,18.66785
661.00,19.05985
662.00,19.51467
663.00,19.91919
664.00,20.33216
665.00,20.72638
666.00,21.09256
667.00,21.53649
668.00,21.87752
669.00,22.28925
670.00,22.69946
671.00,22.97145
672.00,23.38563
673.00,23.78988
674.00,24.11277
675.00,24.48320
676.00,24.82045
677.00,25.19542
678.00,25.57425
679.00,25.86944
680.00,26.33218
681.00,26.61710
682.00,26.93897
683.00,27.27016
684.00,27.60671
685.00,27.95924
686.00,28.32269
687.00,28.60544
688.00,28.90502
689.00,29.19466
690.00,29.48184
691.00,29.65629
692.00,29.99038
693.00,30.35208
694.00,30.64991
695.00,30.92377
696.00,31.13004
697.00,31.31205
698.00,31.53822
699.00,31.86079
700.00,32.04100
701.00,32.24663
702.00,32.49742
703.00,32.70465
704.00,32.94162
705.00,33.05909
706.00,33.28418
707.00,33.54938
708.00,33.69628
709.00,33.85396
710.00,34.03489
711.00,34.13423
712.00,34.32139
713.00,34.51294
714.00,34.63611
715.00,34.75070
716.00,34.88162
717.00,35.07980
718.00,35.13995
719.00,35.22233
720.00,35.38254
721.00,35.51748
722.00,35.64753
723.00,35.77327
724.00,35.79434
725.00,35.92542
726.00,35.99527
727.00,36.11619
728.00,36.30614
729.00,36.46177
730.00,36.58423
731.00,36.60127
732.00,36.72489
733.00,36.91634
734.00,36.91026
735.00,37.06493
736.00,37.09142
737.00,37.19681
738.00,37.39244
739.00,37.39271
740.00,37.49045
741.00,37.69332
742.00,37.72052
743.00,37.79788
744.00,37.97091
745.00,38.11858
746.00,38.25342
747.00,38.19653
748.00,38.56505
749.00,38.73309
750.00,38.75529
751.00,38.83626
752.00,38.93861
753.00,39.04296
754.00,39.17634
755.00,39.26717
756.00,39.42907
757.00,39.64238
758.00,39.88335
759.00,39.84783
760.00,40.14188
761.00,40.21696
762.00,40.42331
763.00,40.59628
764.00,40.76551
765.00,40.98657
766.00,40.99217
767.00,41.32949
768.00,41.42775
769.00,41.49732
770.00,41.62918
771.00,41.88443
772.00,42.12953
773.00,42.26122
774.00,42.20472
775.00,42.50990
776.00,42.24640
777.00,42.84562
778.00,42.94089
779.00,43.09876
780.00,43.13689
781.00,43.44238
782.00,43.68831
783.00,43.72720
784.00,43.95768
785.00,44.17072
786.00,44.29604
787.00,44.41817
788.00,44.66408
789.00,44.53084
790.00,44.81391
791.00,44.88359
792.00,45.01528
793.00,45.25052
794.00,45.47477
795.00,45.36651
796.00,45.68145
797.00,46.03454
798.00,45.89495
799.00,46.17919
800.00,46.35581
801.00,46.41704
802.00,46.50856
803.00,46.64553
804.00,46.99543
805.00,46.96603
806.00,47.17505
807.00,46.99900
808.00,47.71388
809.00,47.31489
810.00,47.71365
811.00,47.81258
812.00,48.03488
813.00,47.93008
814.00,48.25506
815.00,48.15871
816.00,48.38133
817.00,48.47453
818.00,48.44379
819.00,48.73266
820.00,49.14399
821.00,48.64029
822.00,49.08801
823.00,49.07325
824.00,49.62283
825.00,49.26345
826.00,49.75744
827.00,49.69357
828.00,49.58789
829.00,49.49310
830.00,49.76173
831.00,49.88668
832.00,50.19127
833.00,50.47430
834.00,50.50027
835.00,50.65951
836.00,50.47564
837.00,50.84419
838.00,50.32036
839.00,50.69855
840.00,50.80534
841.00,51.04108
842.00,51.61726
843.00,50.86536
844.00,51.35028
845.00,51.46579
846.00,51.12901
847.00,51.04325
848.00,52.50412
849.00,52.26517
850.00,51.77832
851.00,52.13811
852.00,51.73765
853.00,52.09401
854.00,53.00617
855.00,51.30565
856.00,54.05326
857.00,53.02288
858.00,53.62632
859.00,52.22285
860.00,52.66877
861.00,51.16802
862.00,54.13758
863.00,52.19699
864.00,50.22850
865.00,51.43785
866.00,51.48432
867.00,53.27609
868.00,51.78014
869.00,52.41448
870.00,53.08430
871.00,54.53770
872.00,54.39817
873.00,54.06069
874.00,55.31110
875.00,51.19868
876.00,51.19376
877.00,49.59453
878.00,48.42130
879.00,53.23905
880.00,50.67217
881.00,49.86045
882.00,53.68808
883.00,53.75645
884.00,48.39634
885.00,54.60170
886.00,51.98523
887.00,54.72914
888.00,52.22257
889.00,51.01088
890.00,49.10541
891.00,49.91168
892.00,48.36412
893.00,44.89064
894.00,48.55113
895.00,44.99908
896.00,48.32777
897.00,45.20068
898.00,49.31049
899.00,58.01739
900.00,46.05139
