"VIII - RawData"
"Wavelength nm.","T%"
400.00,0.00405
401.00,0.00409
402.00,0.00439
403.00,0.00440
404.00,0.00502
405.00,0.00494
406.00,0.00451
407.00,0.00481
408.00,0.00464
409.00,0.00548
410.00,0.00609
411.00,0.00579
412.00,0.00527
413.00,0.00610
414.00,0.00580
415.00,0.00579
416.00,0.00548
417.00,0.00473
418.00,0.00506
419.00,0.00520
420.00,0.00439
421.00,0.00474
422.00,0.00601
423.00,0.00708
424.00,0.00837
425.00,0.00974
426.00,0.01136
427.00,0.01297
428.00,0.01342
429.00,0.01461
430.00,0.01521
431.00,0.01694
432.00,0.01668
433.00,0.01734
434.00,0.01920
435.00,0.01928
436.00,0.02023
437.00,0.02116
438.00,0.02222
439.00,0.02279
440.00,0.02270
441.00,0.02294
442.00,0.02482
443.00,0.02502
444.00,0.02529
445.00,0.02617
446.00,0.02773
447.00,0.02810
448.00,0.02882
449.00,0.03116
450.00,0.03123
451.00,0.03172
452.00,0.03331
453.00,0.03368
454.00,0.03433
455.00,0.03606
456.00,0.03772
457.00,0.03816
458.00,0.03823
459.00,0.04088
460.00,0.04117
461.00,0.04105
462.00,0.04356
463.00,0.04427
464.00,0.04593
465.00,0.04751
466.00,0.04810
467.00,0.05023
468.00,0.05196
469.00,0.05187
470.00,0.05351
471.00,0.05484
472.00,0.05649
473.00,0.05799
474.00,0.05880
475.00,0.06017
476.00,0.06109
477.00,0.06384
478.00,0.06383
479.00,0.06665
480.00,0.06678
481.00,0.06880
482.00,0.06980
483.00,0.07197
484.00,0.07351
485.00,0.07468
486.00,0.07608
487.00,0.07891
488.00,0.07903
489.00,0.08198
490.00,0.08389
491.00,0.08277
492.00,0.08488
493.00,0.08709
494.00,0.08837
495.00,0.09000
496.00,0.09320
497.00,0.09329
498.00,0.09548
499.00,0.09589
500.00,0.09749
501.00,0.09759
502.00,0.10069
503.00,0.10052
504.00,0.10429
505.00,0.10549
506.00,0.10579
507.00,0.10836
508.00,0.10920
509.00,0.10952
510.00,0.11285
511.00,0.11229
512.00,0.11380
513.00,0.11575
514.00,0.11698
515.00,0.11748
516.00,0.11865
517.00,0.11965
518.00,0.12142
519.00,0.12197
520.00,0.12344
521.00,0.12400
522.00,0.12498
523.00,0.12570
524.00,0.12655
525.00,0.12670
526.00,0.12788
527.00,0.12815
528.00,0.12912
529.00,0.12931
530.00,0.12857
531.00,0.12950
532.00,0.12930
533.00,0.12897
534.00,0.13163
535.00,0.12885
536.00,0.13142
537.00,0.13013
538.00,0.13065
539.00,0.13145
540.00,0.13046
541.00,0.12930
542.00,0.12907
543.00,0.13008
544.00,0.12959
545.00,0.12737
546.00,0.12960
547.00,0.12718
548.00,0.12537
549.00,0.12602
550.00,0.12383
551.00,0.12475
552.00,0.12359
553.00,0.12318
554.00,0.12220
555.00,0.12173
556.00,0.12315
557.00,0.12196
558.00,0.12132
559.00,0.12120
560.00,0.12049
561.00,0.12204
562.00,0.11985
563.00,0.12172
564.00,0.12242
565.00,0.12086
566.00,0.12384
567.00,0.12203
568.00,0.12383
569.00,0.12514
570.00,0.12631
571.00,0.12786
572.00,0.12966
573.00,0.13098
574.00,0.13308
575.00,0.13736
576.00,0.14080
577.00,0.14422
578.00,0.14877
579.00,0.15422
580.00,0.15814
581.00,0.16316
582.00,0.17152
583.00,0.17857
584.00,0.18890
585.00,0.19749
586.00,0.20644
587.00,0.21815
588.00,0.23155
589.00,0.24513
590.00,0.26052
591.00,0.27908
592.00,0.29989
593.00,0.32240
594.00,0.34804
595.00,0.37546
596.00,0.40436
597.00,0.44300
598.00,0.48033
599.00,0.51822
600.00,0.57253
601.00,0.62279
602.00,0.67778
603.00,0.73987
604.00,0.81165
605.00,0.89043
606.00,0.98000
607.00,1.06964
608.00,1.17095
609.00,1.27909
610.00,1.39707
611.00,1.52808
612.00,1.67106
613.00,1.81776
614.00,1.98976
615.00,2.16394
616.00,2.36066
617.00,2.56349
618.00,2.78687
619.00,3.02104
620.00,3.28464
621.00,3.55354
622.00,3.81785
623.00,4.11139
624.00,4.40613
625.00,4.74055
626.00,5.05264
627.00,5.38671
628.00,5.71542
629.00,6.07988
630.00,6.43574
631.00,6.81780
632.00,7.20174
633.00,7.57776
634.00,7.99102
635.00,8.40423
636.00,8.83663
637.00,9.25001
638.00,9.68629
639.00,10.14194
640.00,10.57630
641.00,11.02618
642.00,11.47893
643.00,11.89988
644.00,12.35184
645.00,12.79399
646.00,13.25094
647.00,13.68622
648.00,14.16065
649.00,14.58369
650.00,15.01627
651.00,15.46148
652.00,15.89191
653.00,16.29849
654.00,16.71990
655.00,17.14503
656.00,17.53163
657.00,17.97470
658.00,18.43469
659.00,18.79377
660.00,19.26021
661.00,19.61935
662.00,20.04793
663.00,20.47449
664.00,20.91742
665.00,21.30807
666.00,21.65746
667.00,22.04707
668.00,22.46516
669.00,22.84164
670.00,23.20860
671.00,23.53144
672.00,23.88094
673.00,24.22589
674.00,24.58415
675.00,24.88321
676.00,25.21391
677.00,25.57265
678.00,25.91561
679.00,26.25856
680.00,26.59476
681.00,26.94715
682.00,27.16123
683.00,27.57443
684.00,27.83062
685.00,28.07391
686.00,28.40266
687.00,28.71354
688.00,29.01864
689.00,29.18506
690.00,29.39980
691.00,29.75610
692.00,29.95320
693.00,30.25977
694.00,30.41303
695.00,30.66652
696.00,30.84712
697.00,31.06740
698.00,31.25418
699.00,31.43491
700.00,31.59435
701.00,31.75902
702.00,32.00421
703.00,32.18621
704.00,32.21915
705.00,32.39840
706.00,32.57803
707.00,32.72378
708.00,32.83453
709.00,32.95307
710.00,33.10930
711.00,33.27769
712.00,33.39222
713.00,33.49302
714.00,33.60292
715.00,33.59784
716.00,33.72720
717.00,33.85080
718.00,33.92300
719.00,34.03483
720.00,34.09258
721.00,34.12827
722.00,34.36414
723.00,34.36634
724.00,34.49652
725.00,34.46229
726.00,34.60137
727.00,34.53245
728.00,34.81529
729.00,34.80366
730.00,34.91312
731.00,35.06404
732.00,35.01636
733.00,35.11330
734.00,35.31832
735.00,35.19401
736.00,35.28201
737.00,35.36562
738.00,35.57199
739.00,35.56352
740.00,35.68436
741.00,35.67345
742.00,35.81821
743.00,35.92948
744.00,36.06889
745.00,36.14004
746.00,36.10256
747.00,36.29866
748.00,36.47879
749.00,36.44707
750.00,36.75198
751.00,36.74927
752.00,36.94109
753.00,37.09649
754.00,37.22074
755.00,37.20108
756.00,37.23907
757.00,37.41688
758.00,37.55363
759.00,37.66170
760.00,37.85441
761.00,37.96330
762.00,38.20174
763.00,38.31375
764.00,38.37685
765.00,38.55714
766.00,38.62650
767.00,39.00969
768.00,38.97975
769.00,39.07600
770.00,39.42394
771.00,39.48922
772.00,39.62380
773.00,39.55845
774.00,39.89268
775.00,39.88957
776.00,40.32736
777.00,40.40142
778.00,40.34016
779.00,40.77566
780.00,40.69919
781.00,41.04860
782.00,41.02089
783.00,41.16681
784.00,41.28265
785.00,41.44078
786.00,41.72014
787.00,41.86591
788.00,42.22461
789.00,41.96052
790.00,42.23740
791.00,42.34618
792.00,42.75529
793.00,42.69213
794.00,42.91439
795.00,42.90993
796.00,43.30110
797.00,43.20198
798.00,43.30631
799.00,43.59113
800.00,43.54708
801.00,43.91973
802.00,43.99540
803.00,44.01399
804.00,44.04415
805.00,44.48516
806.00,44.49492
807.00,44.42414
808.00,44.80613
809.00,44.81646
810.00,44.91968
811.00,45.06111
812.00,45.30767
813.00,45.20410
814.00,45.53488
815.00,45.80213
816.00,45.77248
817.00,46.04125
818.00,45.77783
819.00,46.15222
820.00,46.37482
821.00,46.29315
822.00,46.54824
823.00,46.65217
824.00,46.88100
825.00,46.80808
826.00,46.84294
827.00,47.00014
828.00,47.37688
829.00,47.34818
830.00,47.56426
831.00,47.45057
832.00,47.82953
833.00,48.09808
834.00,48.31821
835.00,47.96242
836.00,48.61973
837.00,47.82730
838.00,48.20081
839.00,48.43848
840.00,48.11388
841.00,48.68166
842.00,48.43597
843.00,48.61641
844.00,49.04936
845.00,48.49445
846.00,49.06626
847.00,50.09046
848.00,49.83158
849.00,49.44299
850.00,49.00027
851.00,49.32407
852.00,48.72883
853.00,49.35368
854.00,50.49382
855.00,49.57077
856.00,50.69975
857.00,49.79620
858.00,49.28601
859.00,50.66543
860.00,49.60778
861.00,50.78079
862.00,50.22496
863.00,49.65390
864.00,51.28694
865.00,49.79855
866.00,50.08298
867.00,49.59925
868.00,49.85443
869.00,47.79229
870.00,52.40532
871.00,56.30049
872.00,49.88656
873.00,48.20603
874.00,52.61421
875.00,49.26063
876.00,48.46757
877.00,53.63355
878.00,51.34358
879.00,47.23568
880.00,49.15583
881.00,47.92372
882.00,51.38770
883.00,51.64778
884.00,46.50507
885.00,45.64004
886.00,51.02363
887.00,49.52464
888.00,49.06896
889.00,44.03875
890.00,48.46697
891.00,46.47653
892.00,48.72066
893.00,47.03934
894.00,46.77870
895.00,45.73103
896.00,46.69160
897.00,51.22015
898.00,55.64431
899.00,45.78814
900.00,52.84342
