"IX - RawData"
"Wavelength nm.","T%"
400.00,0.00562
401.00,0.00536
402.00,0.00548
403.00,0.00565
404.00,0.00576
405.00,0.00665
406.00,0.00585
407.00,0.00480
408.00,0.00602
409.00,0.00616
410.00,0.00635
411.00,0.00604
412.00,0.00636
413.00,0.00647
414.00,0.00581
415.00,0.00620
416.00,0.00649
417.00,0.00582
418.00,0.00610
419.00,0.00593
420.00,0.00599
421.00,0.00639
422.00,0.00684
423.00,0.00732
424.00,0.00795
425.00,0.00935
426.00,0.01131
427.00,0.01389
428.00,0.01497
429.00,0.01878
430.00,0.02161
431.00,0.02395
432.00,0.02548
433.00,0.02759
434.00,0.02891
435.00,0.03085
436.00,0.03057
437.00,0.03321
438.00,0.03447
439.00,0.03534
440.00,0.03717
441.00,0.03800
442.00,0.03970
443.00,0.03917
444.00,0.04228
445.00,0.04302
446.00,0.04407
447.00,0.04458
448.00,0.04676
449.00,0.04792
450.00,0.05101
451.00,0.05127
452.00,0.05410
453.00,0.05520
454.00,0.05648
455.00,0.05856
456.00,0.06051
457.00,0.06185
458.00,0.06318
459.00,0.06698
460.00,0.06661
461.00,0.07010
462.00,0.07153
463.00,0.07523
464.00,0.07433
465.00,0.07792
466.00,0.08111
467.00,0.08289
468.00,0.08351
469.00,0.08686
470.00,0.08748
471.00,0.09214
472.00,0.09266
473.00,0.09560
474.00,0.09610
475.00,0.10044
476.00,0.10341
477.00,0.10471
478.00,0.10781
479.00,0.10890
480.00,0.11266
481.00,0.11552
482.00,0.11905
483.00,0.12166
484.00,0.12365
485.00,0.12773
486.00,0.13044
487.00,0.13369
488.00,0.13817
489.00,0.13886
490.00,0.14141
491.00,0.14468
492.00,0.14671
493.00,0.15053
494.00,0.15483
495.00,0.15917
496.00,0.16029
497.00,0.16558
498.00,0.16706
499.00,0.17108
500.00,0.17539
501.00,0.18039
502.00,0.18189
503.00,0.18498
504.00,0.18906
505.00,0.19283
506.00,0.19603
507.00,0.20110
508.00,0.20198
509.00,0.21211
510.00,0.21365
511.00,0.21700
512.00,0.21893
513.00,0.22468
514.00,0.22970
515.00,0.23258
516.00,0.23593
517.00,0.24006
518.00,0.24714
519.00,0.25051
520.00,0.25096
521.00,0.25492
522.00,0.25892
523.00,0.26449
524.00,0.26823
525.00,0.26863
526.00,0.27668
527.00,0.27530
528.00,0.28089
529.00,0.28472
530.00,0.28776
531.00,0.29521
532.00,0.29507
533.00,0.29985
534.00,0.30185
535.00,0.30791
536.00,0.30937
537.00,0.31409
538.00,0.31359
539.00,0.32232
540.00,0.32071
541.00,0.32362
542.00,0.32650
543.00,0.32935
544.00,0.33454
545.00,0.33672
546.00,0.33953
547.00,0.33943
548.00,0.34177
549.00,0.34816
550.00,0.34778
551.00,0.35127
552.00,0.35737
553.00,0.35716
554.00,0.36227
555.00,0.36700
556.00,0.37160
557.00,0.37233
558.00,0.37488
559.00,0.37914
560.00,0.38513
561.00,0.38888
562.00,0.39203
563.00,0.39673
564.00,0.40703
565.00,0.40805
566.00,0.41598
567.00,0.41856
568.00,0.42919
569.00,0.43858
570.00,0.43960
571.00,0.45064
572.00,0.46011
573.00,0.47135
574.00,0.48369
575.00,0.49442
576.00,0.50723
577.00,0.52006
578.00,0.53341
579.00,0.55068
580.00,0.56521
581.00,0.58712
582.00,0.60710
583.00,0.62009
584.00,0.64455
585.00,0.66969
586.00,0.69357
587.00,0.72118
588.00,0.75008
589.00,0.78212
590.00,0.81993
591.00,0.85411
592.00,0.89697
593.00,0.93739
594.00,0.98434
595.00,1.03483
596.00,1.09126
597.00,1.14929
598.00,1.21272
599.00,1.28334
600.00,1.35382
601.00,1.42530
602.00,1.51269
603.00,1.59932
604.00,1.69591
605.00,1.79465
606.00,1.90643
607.00,2.01479
608.00,2.14818
609.00,2.27811
610.00,2.41024
611.00,2.55588
612.00,2.71793
613.00,2.87583
614.00,3.06066
615.00,3.24616
616.00,3.44194
617.00,3.65964
618.00,3.88566
619.00,4.11823
620.00,4.35565
621.00,4.63886
622.00,4.88647
623.00,5.17057
624.00,5.45210
625.00,5.77385
626.00,6.08707
627.00,6.39644
628.00,6.73136
629.00,7.08234
630.00,7.43161
631.00,7.78076
632.00,8.16420
633.00,8.54463
634.00,8.96922
635.00,9.37065
636.00,9.80578
637.00,10.22654
638.00,10.67670
639.00,11.11362
640.00,11.58487
641.00,12.07455
642.00,12.51930
643.00,13.00155
644.00,13.44261
645.00,13.91687
646.00,14.41450
647.00,14.90661
648.00,15.39600
649.00,15.84938
650.00,16.33058
651.00,16.80391
652.00,17.31051
653.00,17.77321
654.00,18.21830
655.00,18.68477
656.00,19.17075
657.00,19.65145
658.00,20.20501
659.00,20.65835
660.00,21.08161
661.00,21.59399
662.00,22.04459
663.00,22.53809
664.00,23.02221
665.00,23.42038
666.00,23.93856
667.00,24.34480
668.00,24.81370
669.00,25.26903
670.00,25.68130
671.00,26.12741
672.00,26.53348
673.00,26.94170
674.00,27.33860
675.00,27.76597
676.00,28.18080
677.00,28.59638
678.00,28.95039
679.00,29.33838
680.00,29.78189
681.00,30.11177
682.00,30.52788
683.00,30.93561
684.00,31.32219
685.00,31.68744
686.00,32.00024
687.00,32.33877
688.00,32.61399
689.00,33.00695
690.00,33.30688
691.00,33.60995
692.00,33.86958
693.00,34.18421
694.00,34.37657
695.00,34.66502
696.00,34.92107
697.00,35.17255
698.00,35.40524
699.00,35.67481
700.00,35.86392
701.00,36.09228
702.00,36.30295
703.00,36.44868
704.00,36.58600
705.00,36.88424
706.00,37.00720
707.00,37.16483
708.00,37.33631
709.00,37.39235
710.00,37.60940
711.00,37.55890
712.00,37.82870
713.00,37.94518
714.00,38.14234
715.00,38.21301
716.00,38.25961
717.00,38.46347
718.00,38.51103
719.00,38.64948
720.00,38.75358
721.00,38.70649
722.00,38.82043
723.00,38.98329
724.00,39.04111
725.00,39.15840
726.00,39.22219
727.00,39.39516
728.00,39.47119
729.00,39.46901
730.00,39.71826
731.00,39.73195
732.00,39.94433
733.00,39.97975
734.00,40.14662
735.00,40.15950
736.00,40.40402
737.00,40.50063
738.00,40.57921
739.00,40.69361
740.00,40.77348
741.00,40.93825
742.00,41.04761
743.00,41.16450
744.00,41.29499
745.00,41.42822
746.00,41.56601
747.00,41.93736
748.00,42.01826
749.00,41.86094
750.00,42.16767
751.00,42.31710
752.00,42.31231
753.00,42.59887
754.00,42.91620
755.00,42.91002
756.00,43.11197
757.00,43.10931
758.00,43.59540
759.00,43.55470
760.00,43.67473
761.00,44.10274
762.00,44.02397
763.00,44.37139
764.00,44.38282
765.00,44.54569
766.00,44.65636
767.00,44.96036
768.00,44.90057
769.00,45.36391
770.00,45.24472
771.00,45.53176
772.00,45.61258
773.00,45.65869
774.00,46.19114
775.00,45.92282
776.00,46.08813
777.00,46.05216
778.00,46.59929
779.00,46.58017
780.00,46.73689
781.00,46.79885
782.00,46.78005
783.00,46.96490
784.00,47.36083
785.00,47.27408
786.00,47.24582
787.00,47.58922
788.00,47.25663
789.00,47.82718
790.00,47.77069
791.00,47.88385
792.00,47.93032
793.00,48.00999
794.00,48.27351
795.00,48.52007
796.00,48.29444
797.00,48.11539
798.00,48.42886
799.00,48.46637
800.00,48.54070
801.00,48.68883
802.00,48.94928
803.00,48.72531
804.00,49.00586
805.00,48.90733
806.00,49.08348
807.00,49.06926
808.00,49.08774
809.00,49.21614
810.00,49.20551
811.00,49.42163
812.00,49.47851
813.00,49.35155
814.00,49.35611
815.00,49.20512
816.00,49.80263
817.00,49.47150
818.00,49.75497
819.00,49.57267
820.00,49.73656
821.00,49.98675
822.00,49.72969
823.00,49.67576
824.00,49.62210
825.00,49.90739
826.00,49.93778
827.00,49.71483
828.00,50.11680
829.00,50.16095
830.00,50.01455
831.00,50.09409
832.00,50.23705
833.00,49.62551
834.00,50.04581
835.00,49.68145
836.00,50.18011
837.00,50.28113
838.00,49.98394
839.00,49.92285
840.00,50.02509
841.00,49.47532
842.00,49.90604
843.00,49.48188
844.00,49.27896
845.00,49.99592
846.00,49.04764
847.00,49.78718
848.00,50.69652
849.00,49.94111
850.00,49.14666
851.00,48.44877
852.00,49.40571
853.00,49.82328
854.00,49.35299
855.00,48.75518
856.00,49.34157
857.00,47.77524
858.00,47.98074
859.00,48.98776
860.00,50.26602
861.00,52.35302
862.00,47.52130
863.00,49.92490
864.00,49.68073
865.00,48.03724
866.00,50.06375
867.00,49.29928
868.00,51.33569
869.00,50.51681
870.00,49.85240
871.00,46.66136
872.00,46.46145
873.00,48.29958
874.00,47.23007
875.00,45.94961
876.00,50.39049
877.00,47.74515
878.00,45.25928
879.00,51.00972
880.00,46.01535
881.00,49.18211
882.00,52.69104
883.00,43.96228
884.00,48.30479
885.00,46.19290
886.00,49.04439
887.00,42.29403
888.00,50.15378
889.00,43.44548
890.00,49.75299
891.00,48.66812
892.00,51.07909
893.00,44.28265
894.00,48.85259
895.00,41.98345
896.00,49.14984
897.00,49.90105
898.00,45.37908
899.00,52.60025
900.00,44.50660
