"Ag2BiI5_IX - RawData"
"Wavelength nm.","T%"
400.00,0.00217
401.00,0.00216
402.00,0.00294
403.00,0.00264
404.00,0.00244
405.00,0.00282
406.00,0.00304
407.00,0.00310
408.00,0.00287
409.00,0.00335
410.00,0.00313
411.00,0.00272
412.00,0.00301
413.00,0.00342
414.00,0.00301
415.00,0.00280
416.00,0.00331
417.00,0.00279
418.00,0.00316
419.00,0.00258
420.00,0.00348
421.00,0.00314
422.00,0.00351
423.00,0.00353
424.00,0.00447
425.00,0.00490
426.00,0.00602
427.00,0.00683
428.00,0.00883
429.00,0.01034
430.00,0.01173
431.00,0.01216
432.00,0.01374
433.00,0.01449
434.00,0.01592
435.00,0.01733
436.00,0.01729
437.00,0.01845
438.00,0.01969
439.00,0.01935
440.00,0.02090
441.00,0.02083
442.00,0.02193
443.00,0.02327
444.00,0.02358
445.00,0.02510
446.00,0.02423
447.00,0.02570
448.00,0.02808
449.00,0.02932
450.00,0.02924
451.00,0.03091
452.00,0.03213
453.00,0.03275
454.00,0.03214
455.00,0.03438
456.00,0.03559
457.00,0.03638
458.00,0.03737
459.00,0.03759
460.00,0.04047
461.00,0.04216
462.00,0.04336
463.00,0.04315
464.00,0.04467
465.00,0.04759
466.00,0.04848
467.00,0.05038
468.00,0.05109
469.00,0.05266
470.00,0.05459
471.00,0.05529
472.00,0.05667
473.00,0.05790
474.00,0.06034
475.00,0.06132
476.00,0.06511
477.00,0.06605
478.00,0.06688
479.00,0.06907
480.00,0.07037
481.00,0.07299
482.00,0.07301
483.00,0.07545
484.00,0.07757
485.00,0.07967
486.00,0.08150
487.00,0.08447
488.00,0.08536
489.00,0.08947
490.00,0.09051
491.00,0.09329
492.00,0.09631
493.00,0.09709
494.00,0.10016
495.00,0.10123
496.00,0.10506
497.00,0.10696
498.00,0.10905
499.00,0.11056
500.00,0.11410
501.00,0.11620
502.00,0.11975
503.00,0.12276
504.00,0.12444
505.00,0.12647
506.00,0.12871
507.00,0.13095
508.00,0.13368
509.00,0.13610
510.00,0.14145
511.00,0.14444
512.00,0.14664
513.00,0.15005
514.00,0.15051
515.00,0.15403
516.00,0.16048
517.00,0.15974
518.00,0.16379
519.00,0.16820
520.00,0.17131
521.00,0.17132
522.00,0.17476
523.00,0.17832
524.00,0.18035
525.00,0.18305
526.00,0.18823
527.00,0.18872
528.00,0.19267
529.00,0.19553
530.00,0.19926
531.00,0.20172
532.00,0.20422
533.00,0.20588
534.00,0.20849
535.00,0.21242
536.00,0.21333
537.00,0.21716
538.00,0.21946
539.00,0.22257
540.00,0.22600
541.00,0.22894
542.00,0.23096
543.00,0.23326
544.00,0.23242
545.00,0.23668
546.00,0.24046
547.00,0.24045
548.00,0.24502
549.00,0.25005
550.00,0.25151
551.00,0.25288
552.00,0.25784
553.00,0.25875
554.00,0.26128
555.00,0.26316
556.00,0.26977
557.00,0.27103
558.00,0.27299
559.00,0.27749
560.00,0.28358
561.00,0.28470
562.00,0.29196
563.00,0.29287
564.00,0.29470
565.00,0.30400
566.00,0.30738
567.00,0.31326
568.00,0.32232
569.00,0.32554
570.00,0.33275
571.00,0.34139
572.00,0.34863
573.00,0.35559
574.00,0.36358
575.00,0.37446
576.00,0.38767
577.00,0.39662
578.00,0.40812
579.00,0.41882
580.00,0.43649
581.00,0.45033
582.00,0.46274
583.00,0.48264
584.00,0.50113
585.00,0.51845
586.00,0.53846
587.00,0.56142
588.00,0.58569
589.00,0.61348
590.00,0.63981
591.00,0.67341
592.00,0.70850
593.00,0.74247
594.00,0.77564
595.00,0.81903
596.00,0.86416
597.00,0.91643
598.00,0.96737
599.00,1.01840
600.00,1.08323
601.00,1.14263
602.00,1.21359
603.00,1.28092
604.00,1.36628
605.00,1.45189
606.00,1.53357
607.00,1.63244
608.00,1.72512
609.00,1.83709
610.00,1.95315
611.00,2.07959
612.00,2.20982
613.00,2.36092
614.00,2.49572
615.00,2.65539
616.00,2.81662
617.00,3.00861
618.00,3.18716
619.00,3.40607
620.00,3.61692
621.00,3.83803
622.00,4.07174
623.00,4.30293
624.00,4.56182
625.00,4.81979
626.00,5.12013
627.00,5.40147
628.00,5.69438
629.00,6.00202
630.00,6.32492
631.00,6.64730
632.00,6.98640
633.00,7.35681
634.00,7.71583
635.00,8.07948
636.00,8.48858
637.00,8.86963
638.00,9.28606
639.00,9.70376
640.00,10.15003
641.00,10.59861
642.00,11.02854
643.00,11.48159
644.00,11.92919
645.00,12.39413
646.00,12.83506
647.00,13.29532
648.00,13.79878
649.00,14.24237
650.00,14.73649
651.00,15.18856
652.00,15.67674
653.00,16.13553
654.00,16.60733
655.00,17.08721
656.00,17.55207
657.00,17.97312
658.00,18.47552
659.00,18.98432
660.00,19.35569
661.00,19.88477
662.00,20.36417
663.00,20.77469
664.00,21.31343
665.00,21.73966
666.00,22.16195
667.00,22.59836
668.00,23.09631
669.00,23.55155
670.00,23.94673
671.00,24.36740
672.00,24.76615
673.00,25.19096
674.00,25.52373
675.00,25.97413
676.00,26.35545
677.00,26.77628
678.00,27.15977
679.00,27.50546
680.00,27.96243
681.00,28.32295
682.00,28.64304
683.00,29.09991
684.00,29.44030
685.00,29.85023
686.00,30.24561
687.00,30.54626
688.00,30.85764
689.00,31.23022
690.00,31.66653
691.00,31.84295
692.00,32.22688
693.00,32.57702
694.00,32.91702
695.00,33.15946
696.00,33.45765
697.00,33.73908
698.00,34.03805
699.00,34.40949
700.00,34.67094
701.00,34.84275
702.00,35.11501
703.00,35.37040
704.00,35.66036
705.00,35.87809
706.00,36.09753
707.00,36.41180
708.00,36.63707
709.00,36.80927
710.00,36.94380
711.00,37.15921
712.00,37.30827
713.00,37.59964
714.00,37.68634
715.00,37.89560
716.00,38.02124
717.00,38.21714
718.00,38.31347
719.00,38.46878
720.00,38.75786
721.00,38.71304
722.00,38.82563
723.00,38.95934
724.00,39.10619
725.00,39.17676
726.00,39.28559
727.00,39.46170
728.00,39.55738
729.00,39.61684
730.00,39.66969
731.00,39.78301
732.00,39.85266
733.00,40.07550
734.00,40.12591
735.00,40.04073
736.00,40.03763
737.00,40.23903
738.00,40.44366
739.00,40.39049
740.00,40.43790
741.00,40.55756
742.00,40.58338
743.00,40.56687
744.00,40.58042
745.00,40.75887
746.00,40.84698
747.00,40.85123
748.00,40.96723
749.00,41.02305
750.00,41.06704
751.00,41.14333
752.00,41.36736
753.00,41.27340
754.00,41.30701
755.00,41.56474
756.00,41.63975
757.00,41.57764
758.00,41.78237
759.00,41.60254
760.00,42.08983
761.00,42.18277
762.00,42.13377
763.00,42.14800
764.00,42.22205
765.00,42.34911
766.00,42.40915
767.00,42.58206
768.00,42.59118
769.00,42.84010
770.00,42.79002
771.00,42.88737
772.00,43.02962
773.00,43.12797
774.00,43.12291
775.00,43.26467
776.00,43.38623
777.00,43.39952
778.00,43.61572
779.00,43.71552
780.00,43.68029
781.00,43.68792
782.00,44.07755
783.00,43.99745
784.00,44.12434
785.00,44.17237
786.00,44.37343
787.00,44.26933
788.00,44.79822
789.00,44.62913
790.00,44.68273
791.00,44.86279
792.00,45.01876
793.00,45.16608
794.00,45.36304
795.00,45.02656
796.00,45.48565
797.00,45.44513
798.00,45.42027
799.00,45.72121
800.00,45.63824
801.00,45.96943
802.00,45.85931
803.00,46.01061
804.00,46.12181
805.00,46.25050
806.00,46.44920
807.00,46.73102
808.00,47.04880
809.00,46.53806
810.00,46.80221
811.00,46.81540
812.00,47.13422
813.00,47.20319
814.00,47.16780
815.00,47.15672
816.00,47.12116
817.00,47.36836
818.00,47.51256
819.00,47.82759
820.00,47.91291
821.00,47.81899
822.00,48.17463
823.00,48.23927
824.00,48.35242
825.00,48.25948
826.00,48.48588
827.00,48.35107
828.00,48.39857
829.00,48.72183
830.00,48.48201
831.00,48.57193
832.00,48.85797
833.00,49.00151
834.00,49.22999
835.00,48.60978
836.00,49.11424
837.00,49.16516
838.00,49.15771
839.00,49.70784
840.00,49.62730
841.00,49.51181
842.00,50.30010
843.00,49.75202
844.00,50.04112
845.00,49.89368
846.00,50.44376
847.00,49.33435
848.00,50.20342
849.00,50.53834
850.00,50.65860
851.00,49.48964
852.00,50.28890
853.00,50.04337
854.00,50.33922
855.00,49.67768
856.00,50.70148
857.00,51.36212
858.00,50.27233
859.00,50.75328
860.00,50.77134
861.00,50.18966
862.00,50.45652
863.00,51.70437
864.00,50.34977
865.00,49.79033
866.00,49.14471
867.00,50.91440
868.00,48.32143
869.00,50.41888
870.00,49.84861
871.00,50.47450
872.00,48.98921
873.00,53.46803
874.00,52.59172
875.00,48.79161
876.00,50.03158
877.00,49.34548
878.00,52.49088
879.00,58.22568
880.00,47.81786
881.00,51.02517
882.00,50.14910
883.00,53.95779
884.00,45.79917
885.00,51.47994
886.00,49.82051
887.00,52.69755
888.00,48.02454
889.00,52.18208
890.00,45.29040
891.00,47.42711
892.00,47.25257
893.00,50.48574
894.00,44.59676
895.00,41.24156
896.00,46.30643
897.00,52.02406
898.00,49.75508
899.00,56.49974
900.00,43.74152
