"Ag2BiI5_IX - RawData"
"Wavelength nm.","T%"
400.00,0.00286
401.00,0.00275
402.00,0.00343
403.00,0.00289
404.00,0.00376
405.00,0.00411
406.00,0.00362
407.00,0.00386
408.00,0.00381
409.00,0.00450
410.00,0.00446
411.00,0.00414
412.00,0.00414
413.00,0.00388
414.00,0.00372
415.00,0.00416
416.00,0.00439
417.00,0.00405
418.00,0.00399
419.00,0.00386
420.00,0.00425
421.00,0.00411
422.00,0.00405
423.00,0.00521
424.00,0.00564
425.00,0.00609
426.00,0.00789
427.00,0.00902
428.00,0.01043
429.00,0.01293
430.00,0.01328
431.00,0.01528
432.00,0.01658
433.00,0.01815
434.00,0.01912
435.00,0.02001
436.00,0.02043
437.00,0.02113
438.00,0.02252
439.00,0.02296
440.00,0.02503
441.00,0.02533
442.00,0.02547
443.00,0.02683
444.00,0.02895
445.00,0.02855
446.00,0.02968
447.00,0.03057
448.00,0.03241
449.00,0.03389
450.00,0.03418
451.00,0.03444
452.00,0.03632
453.00,0.03707
454.00,0.03834
455.00,0.03872
456.00,0.04125
457.00,0.04323
458.00,0.04368
459.00,0.04439
460.00,0.04702
461.00,0.04694
462.00,0.04968
463.00,0.05017
464.00,0.05171
465.00,0.05347
466.00,0.05481
467.00,0.05540
468.00,0.05835
469.00,0.05864
470.00,0.06124
471.00,0.06324
472.00,0.06512
473.00,0.06675
474.00,0.06797
475.00,0.07018
476.00,0.07100
477.00,0.07365
478.00,0.07388
479.00,0.07778
480.00,0.07911
481.00,0.08045
482.00,0.08274
483.00,0.08469
484.00,0.08831
485.00,0.09015
486.00,0.09112
487.00,0.09423
488.00,0.09650
489.00,0.09797
490.00,0.09979
491.00,0.10294
492.00,0.10638
493.00,0.10709
494.00,0.10859
495.00,0.11159
496.00,0.11478
497.00,0.11671
498.00,0.11928
499.00,0.12139
500.00,0.12417
501.00,0.12699
502.00,0.12982
503.00,0.13414
504.00,0.13663
505.00,0.13858
506.00,0.14198
507.00,0.14543
508.00,0.14775
509.00,0.15192
510.00,0.15601
511.00,0.15678
512.00,0.15956
513.00,0.16131
514.00,0.16496
515.00,0.17013
516.00,0.17277
517.00,0.17756
518.00,0.18022
519.00,0.18341
520.00,0.18625
521.00,0.18994
522.00,0.19136
523.00,0.19584
524.00,0.19753
525.00,0.20078
526.00,0.20740
527.00,0.21002
528.00,0.21082
529.00,0.21257
530.00,0.21714
531.00,0.22052
532.00,0.22318
533.00,0.22795
534.00,0.23070
535.00,0.23293
536.00,0.23720
537.00,0.24111
538.00,0.24341
539.00,0.24664
540.00,0.24950
541.00,0.25388
542.00,0.25711
543.00,0.25591
544.00,0.26289
545.00,0.26649
546.00,0.26548
547.00,0.26957
548.00,0.27216
549.00,0.27410
550.00,0.27596
551.00,0.27984
552.00,0.28433
553.00,0.28814
554.00,0.28940
555.00,0.29408
556.00,0.29496
557.00,0.30220
558.00,0.30615
559.00,0.30814
560.00,0.31361
561.00,0.31789
562.00,0.32503
563.00,0.32918
564.00,0.33398
565.00,0.33715
566.00,0.34252
567.00,0.35079
568.00,0.35452
569.00,0.36311
570.00,0.37002
571.00,0.37926
572.00,0.38760
573.00,0.39807
574.00,0.40616
575.00,0.41519
576.00,0.43011
577.00,0.44211
578.00,0.45393
579.00,0.46774
580.00,0.47865
581.00,0.49972
582.00,0.51683
583.00,0.53366
584.00,0.55354
585.00,0.57035
586.00,0.59470
587.00,0.61801
588.00,0.64064
589.00,0.67235
590.00,0.70608
591.00,0.73548
592.00,0.77019
593.00,0.80787
594.00,0.84735
595.00,0.89103
596.00,0.93868
597.00,0.99160
598.00,1.05021
599.00,1.09977
600.00,1.17624
601.00,1.23265
602.00,1.30134
603.00,1.37835
604.00,1.46039
605.00,1.54933
606.00,1.64005
607.00,1.74029
608.00,1.84221
609.00,1.95429
610.00,2.06773
611.00,2.20112
612.00,2.33469
613.00,2.47909
614.00,2.63356
615.00,2.79547
616.00,2.97459
617.00,3.16173
618.00,3.34626
619.00,3.56678
620.00,3.78844
621.00,4.01263
622.00,4.25576
623.00,4.49751
624.00,4.75774
625.00,5.03577
626.00,5.30472
627.00,5.58126
628.00,5.89608
629.00,6.20868
630.00,6.52733
631.00,6.83981
632.00,7.19041
633.00,7.54760
634.00,7.92691
635.00,8.33236
636.00,8.72613
637.00,9.10853
638.00,9.50620
639.00,9.94746
640.00,10.39676
641.00,10.83800
642.00,11.30349
643.00,11.74217
644.00,12.20808
645.00,12.65066
646.00,13.12405
647.00,13.60760
648.00,14.05661
649.00,14.55005
650.00,14.97817
651.00,15.44657
652.00,15.93818
653.00,16.38071
654.00,16.85208
655.00,17.32924
656.00,17.79731
657.00,18.26589
658.00,18.78650
659.00,19.20075
660.00,19.67528
661.00,20.14612
662.00,20.59762
663.00,21.13094
664.00,21.52826
665.00,22.05544
666.00,22.52064
667.00,22.90667
668.00,23.35276
669.00,23.79821
670.00,24.23774
671.00,24.62991
672.00,25.04953
673.00,25.48109
674.00,25.88042
675.00,26.29227
676.00,26.72368
677.00,27.12050
678.00,27.47810
679.00,27.91153
680.00,28.32497
681.00,28.73302
682.00,29.13583
683.00,29.44081
684.00,29.83758
685.00,30.23833
686.00,30.67698
687.00,30.93749
688.00,31.27232
689.00,31.67882
690.00,31.97652
691.00,32.40232
692.00,32.63865
693.00,32.96240
694.00,33.31605
695.00,33.57466
696.00,33.89627
697.00,34.15064
698.00,34.45656
699.00,34.79387
700.00,35.05073
701.00,35.23556
702.00,35.50255
703.00,35.82176
704.00,36.01741
705.00,36.22411
706.00,36.46539
707.00,36.62203
708.00,36.84084
709.00,37.03763
710.00,37.27896
711.00,37.35919
712.00,37.57103
713.00,37.76785
714.00,38.01853
715.00,37.95990
716.00,38.14939
717.00,38.36261
718.00,38.38512
719.00,38.55006
720.00,38.70811
721.00,38.72242
722.00,38.87770
723.00,38.96176
724.00,38.97056
725.00,39.05897
726.00,39.18353
727.00,39.26563
728.00,39.31394
729.00,39.50127
730.00,39.51654
731.00,39.62673
732.00,39.61781
733.00,39.76152
734.00,39.91546
735.00,39.97710
736.00,39.98516
737.00,40.11590
738.00,40.11145
739.00,40.14879
740.00,40.35160
741.00,40.26162
742.00,40.40610
743.00,40.43531
744.00,40.58149
745.00,40.66276
746.00,40.65733
747.00,40.79449
748.00,40.81845
749.00,40.95939
750.00,40.87311
751.00,41.04636
752.00,41.07774
753.00,41.23565
754.00,41.35669
755.00,41.30823
756.00,41.45117
757.00,41.50593
758.00,41.53577
759.00,41.75607
760.00,41.92658
761.00,41.92630
762.00,42.09637
763.00,42.12081
764.00,42.24527
765.00,42.40370
766.00,42.44938
767.00,42.66810
768.00,42.77224
769.00,42.87777
770.00,42.81386
771.00,43.21479
772.00,43.14154
773.00,43.45457
774.00,43.38582
775.00,43.56912
776.00,43.63319
777.00,43.79172
778.00,44.12743
779.00,43.89466
780.00,43.88930
781.00,44.30730
782.00,44.40153
783.00,44.43137
784.00,44.58865
785.00,44.69573
786.00,44.74666
787.00,44.89374
788.00,44.92309
789.00,44.95684
790.00,45.23513
791.00,45.17752
792.00,45.32711
793.00,45.51078
794.00,45.66842
795.00,45.52617
796.00,45.73560
797.00,45.95097
798.00,45.93034
799.00,46.20078
800.00,46.42425
801.00,46.29606
802.00,46.26860
803.00,46.48490
804.00,46.46788
805.00,46.66425
806.00,46.91876
807.00,47.18098
808.00,47.08143
809.00,47.30735
810.00,47.15340
811.00,47.38848
812.00,47.52742
813.00,47.46240
814.00,47.66448
815.00,47.90179
816.00,47.86527
817.00,48.08108
818.00,47.82991
819.00,48.03345
820.00,48.14152
821.00,48.37925
822.00,48.55773
823.00,48.46301
824.00,48.90493
825.00,48.56502
826.00,48.70563
827.00,48.89207
828.00,48.88516
829.00,48.97244
830.00,48.96986
831.00,48.89724
832.00,49.12484
833.00,49.56320
834.00,49.68797
835.00,49.33144
836.00,49.61276
837.00,49.35876
838.00,49.29070
839.00,49.66583
840.00,49.89802
841.00,49.64264
842.00,49.90560
843.00,49.55651
844.00,49.58307
845.00,50.15836
846.00,50.01397
847.00,48.58570
848.00,50.18969
849.00,49.89254
850.00,49.32909
851.00,50.78840
852.00,49.59586
853.00,49.90123
854.00,50.12814
855.00,50.09617
856.00,49.53018
857.00,49.46658
858.00,48.95310
859.00,50.34113
860.00,48.59699
861.00,49.89562
862.00,48.14021
863.00,49.37349
864.00,49.14672
865.00,50.08602
866.00,50.09650
867.00,48.32726
868.00,51.02978
869.00,51.46837
870.00,49.02824
871.00,48.98220
872.00,48.73806
873.00,52.11114
874.00,48.42092
875.00,51.36632
876.00,48.98120
877.00,50.81648
878.00,49.92222
879.00,52.27330
880.00,47.20932
881.00,47.05964
882.00,47.59535
883.00,48.28783
884.00,49.71387
885.00,50.52297
886.00,49.46865
887.00,43.30306
888.00,51.53074
889.00,48.82306
890.00,60.16147
891.00,46.03749
892.00,45.91136
893.00,46.78569
894.00,47.05590
895.00,47.12418
896.00,47.25832
897.00,47.93667
898.00,55.65189
899.00,49.88953
900.00,56.41407
