"Ag2BiI5_IX - RawData"
"Wavelength nm.","T%"
400.00,0.00172
401.00,0.00191
402.00,0.00142
403.00,0.00179
404.00,0.00233
405.00,0.00175
406.00,0.00241
407.00,0.00239
408.00,0.00254
409.00,0.00234
410.00,0.00262
411.00,0.00232
412.00,0.00261
413.00,0.00257
414.00,0.00238
415.00,0.00273
416.00,0.00250
417.00,0.00203
418.00,0.00248
419.00,0.00241
420.00,0.00266
421.00,0.00255
422.00,0.00243
423.00,0.00333
424.00,0.00316
425.00,0.00442
426.00,0.00594
427.00,0.00645
428.00,0.00759
429.00,0.01016
430.00,0.01146
431.00,0.01278
432.00,0.01376
433.00,0.01525
434.00,0.01716
435.00,0.01646
436.00,0.01810
437.00,0.01945
438.00,0.01873
439.00,0.02045
440.00,0.02186
441.00,0.02278
442.00,0.02348
443.00,0.02426
444.00,0.02467
445.00,0.02503
446.00,0.02697
447.00,0.02758
448.00,0.02779
449.00,0.02946
450.00,0.03068
451.00,0.03240
452.00,0.03233
453.00,0.03326
454.00,0.03387
455.00,0.03603
456.00,0.03661
457.00,0.04004
458.00,0.03886
459.00,0.03983
460.00,0.04321
461.00,0.04273
462.00,0.04491
463.00,0.04726
464.00,0.04895
465.00,0.04847
466.00,0.05008
467.00,0.05233
468.00,0.05469
469.00,0.05373
470.00,0.05824
471.00,0.05822
472.00,0.06086
473.00,0.06268
474.00,0.06328
475.00,0.06526
476.00,0.06780
477.00,0.07092
478.00,0.07057
479.00,0.07276
480.00,0.07524
481.00,0.07767
482.00,0.07895
483.00,0.08185
484.00,0.08203
485.00,0.08394
486.00,0.08711
487.00,0.08927
488.00,0.09127
489.00,0.09582
490.00,0.09480
491.00,0.10001
492.00,0.10061
493.00,0.10328
494.00,0.10702
495.00,0.10875
496.00,0.11014
497.00,0.11472
498.00,0.11758
499.00,0.11922
500.00,0.12096
501.00,0.12394
502.00,0.12624
503.00,0.12983
504.00,0.13241
505.00,0.13750
506.00,0.13950
507.00,0.14370
508.00,0.14665
509.00,0.14898
510.00,0.15099
511.00,0.15474
512.00,0.15673
513.00,0.16233
514.00,0.16537
515.00,0.17079
516.00,0.17341
517.00,0.17560
518.00,0.18002
519.00,0.18196
520.00,0.18577
521.00,0.18900
522.00,0.19335
523.00,0.19376
524.00,0.19963
525.00,0.20274
526.00,0.20804
527.00,0.21000
528.00,0.21446
529.00,0.21612
530.00,0.22093
531.00,0.22201
532.00,0.22705
533.00,0.23044
534.00,0.23392
535.00,0.23784
536.00,0.24160
537.00,0.24278
538.00,0.24977
539.00,0.25106
540.00,0.25469
541.00,0.25775
542.00,0.26366
543.00,0.26609
544.00,0.26606
545.00,0.27152
546.00,0.27546
547.00,0.27727
548.00,0.28207
549.00,0.28673
550.00,0.28827
551.00,0.29355
552.00,0.29570
553.00,0.30256
554.00,0.30496
555.00,0.30880
556.00,0.31212
557.00,0.31904
558.00,0.32038
559.00,0.32839
560.00,0.33263
561.00,0.33798
562.00,0.34371
563.00,0.35036
564.00,0.35483
565.00,0.36241
566.00,0.36750
567.00,0.37709
568.00,0.38447
569.00,0.39397
570.00,0.40168
571.00,0.41186
572.00,0.41907
573.00,0.43612
574.00,0.44552
575.00,0.45394
576.00,0.46981
577.00,0.48548
578.00,0.50072
579.00,0.52184
580.00,0.53731
581.00,0.55476
582.00,0.57884
583.00,0.59901
584.00,0.61972
585.00,0.64365
586.00,0.66913
587.00,0.69779
588.00,0.72872
589.00,0.76662
590.00,0.79827
591.00,0.83740
592.00,0.88215
593.00,0.92639
594.00,0.97446
595.00,1.02468
596.00,1.07912
597.00,1.14572
598.00,1.20530
599.00,1.27792
600.00,1.34406
601.00,1.42346
602.00,1.50866
603.00,1.59625
604.00,1.69004
605.00,1.79251
606.00,1.91143
607.00,2.01349
608.00,2.13511
609.00,2.27702
610.00,2.40984
611.00,2.54952
612.00,2.71448
613.00,2.87373
614.00,3.05983
615.00,3.24817
616.00,3.44235
617.00,3.65748
618.00,3.89554
619.00,4.13243
620.00,4.39969
621.00,4.64964
622.00,4.92718
623.00,5.20276
624.00,5.49326
625.00,5.81809
626.00,6.15186
627.00,6.47532
628.00,6.81986
629.00,7.16979
630.00,7.52112
631.00,7.92210
632.00,8.31062
633.00,8.72061
634.00,9.17846
635.00,9.55901
636.00,10.03079
637.00,10.47448
638.00,10.94364
639.00,11.42745
640.00,11.93759
641.00,12.45399
642.00,12.95023
643.00,13.44597
644.00,13.93692
645.00,14.49289
646.00,14.99388
647.00,15.50756
648.00,16.03050
649.00,16.53955
650.00,17.06972
651.00,17.57561
652.00,18.10895
653.00,18.59780
654.00,19.10214
655.00,19.60641
656.00,20.13521
657.00,20.65418
658.00,21.12799
659.00,21.61256
660.00,22.10089
661.00,22.60572
662.00,23.10436
663.00,23.62825
664.00,24.10771
665.00,24.58153
666.00,25.01283
667.00,25.42090
668.00,25.96939
669.00,26.38248
670.00,26.85362
671.00,27.28339
672.00,27.68187
673.00,28.10144
674.00,28.56664
675.00,28.93028
676.00,29.39699
677.00,29.78433
678.00,30.26216
679.00,30.68094
680.00,31.15805
681.00,31.53245
682.00,31.94768
683.00,32.36316
684.00,32.74664
685.00,33.17901
686.00,33.67445
687.00,34.05843
688.00,34.40588
689.00,34.77760
690.00,35.18459
691.00,35.61040
692.00,36.02604
693.00,36.35193
694.00,36.75512
695.00,37.14987
696.00,37.47538
697.00,37.83973
698.00,38.05171
699.00,38.49956
700.00,38.78824
701.00,39.08821
702.00,39.39708
703.00,39.64495
704.00,40.00683
705.00,40.28653
706.00,40.53742
707.00,40.82604
708.00,40.99279
709.00,41.27962
710.00,41.47046
711.00,41.70684
712.00,41.90607
713.00,42.21256
714.00,42.18193
715.00,42.32248
716.00,42.55628
717.00,42.61523
718.00,42.76547
719.00,42.89970
720.00,42.95463
721.00,43.16738
722.00,43.12376
723.00,43.20082
724.00,43.15207
725.00,43.28308
726.00,43.40049
727.00,43.39377
728.00,43.54970
729.00,43.46861
730.00,43.54240
731.00,43.53237
732.00,43.59254
733.00,43.60798
734.00,43.52793
735.00,43.56853
736.00,43.58605
737.00,43.61218
738.00,43.67886
739.00,43.48415
740.00,43.68248
741.00,43.64438
742.00,43.64429
743.00,43.59066
744.00,43.65381
745.00,43.72382
746.00,43.70277
747.00,43.66745
748.00,43.72405
749.00,43.75051
750.00,43.85183
751.00,43.87411
752.00,43.89675
753.00,43.87699
754.00,43.96806
755.00,43.99431
756.00,44.08586
757.00,44.08463
758.00,44.14299
759.00,44.45745
760.00,44.27754
761.00,44.47772
762.00,44.50738
763.00,44.58595
764.00,44.63277
765.00,44.83954
766.00,44.67920
767.00,44.76471
768.00,45.04644
769.00,45.30880
770.00,45.33136
771.00,45.34074
772.00,45.41230
773.00,45.54258
774.00,45.60802
775.00,45.66063
776.00,45.87105
777.00,45.93548
778.00,45.96882
779.00,46.02106
780.00,46.35992
781.00,46.39251
782.00,46.46319
783.00,46.74295
784.00,46.56546
785.00,46.82741
786.00,47.06554
787.00,47.03150
788.00,47.00866
789.00,47.35657
790.00,47.61413
791.00,47.68770
792.00,47.89392
793.00,47.98103
794.00,48.05753
795.00,48.05095
796.00,48.28118
797.00,48.51886
798.00,48.65359
799.00,48.71792
800.00,48.53829
801.00,49.04263
802.00,49.16101
803.00,49.37356
804.00,49.44157
805.00,49.48694
806.00,49.78052
807.00,49.79091
808.00,49.79252
809.00,49.78892
810.00,50.18038
811.00,50.00438
812.00,50.29956
813.00,50.47235
814.00,50.67537
815.00,50.78894
816.00,50.96964
817.00,50.98085
818.00,51.40308
819.00,51.42060
820.00,51.29043
821.00,51.64239
822.00,51.72294
823.00,51.82815
824.00,51.68948
825.00,52.29848
826.00,52.03111
827.00,52.35853
828.00,52.91578
829.00,52.73343
830.00,52.54672
831.00,52.94990
832.00,52.93658
833.00,53.04044
834.00,53.13784
835.00,52.84866
836.00,52.56448
837.00,53.44641
838.00,53.95141
839.00,53.64007
840.00,53.30159
841.00,54.05810
842.00,53.74760
843.00,53.21545
844.00,53.30878
845.00,53.78136
846.00,53.59199
847.00,53.76545
848.00,54.34456
849.00,53.76329
850.00,54.20821
851.00,54.12971
852.00,54.61250
853.00,55.40380
854.00,54.09243
855.00,53.42305
856.00,53.82561
857.00,54.35758
858.00,55.28697
859.00,53.43189
860.00,52.85687
861.00,55.40149
862.00,53.38461
863.00,54.83089
864.00,55.37835
865.00,53.22347
866.00,55.29730
867.00,52.65334
868.00,51.25025
869.00,53.69949
870.00,53.20382
871.00,52.18500
872.00,54.04708
873.00,55.71766
874.00,52.48621
875.00,54.33846
876.00,49.69206
877.00,55.76701
878.00,54.46033
879.00,55.69438
880.00,50.23627
881.00,49.77234
882.00,53.23400
883.00,55.85043
884.00,55.98192
885.00,53.44723
886.00,54.29216
887.00,49.27452
888.00,48.86966
889.00,54.13986
890.00,49.71960
891.00,52.54707
892.00,54.97548
893.00,50.76036
894.00,47.34637
895.00,51.86633
896.00,49.58017
897.00,49.98866
898.00,44.90246
899.00,48.52054
900.00,48.00862
