"215 - RawData"
"Wavelength nm.","T%"
400.00,0.04738
401.00,0.04718
402.00,0.04933
403.00,0.04923
404.00,0.05058
405.00,0.05004
406.00,0.05142
407.00,0.04997
408.00,0.05054
409.00,0.04997
410.00,0.05156
411.00,0.05137
412.00,0.05164
413.00,0.04983
414.00,0.05019
415.00,0.04797
416.00,0.04803
417.00,0.04557
418.00,0.04378
419.00,0.04235
420.00,0.04107
421.00,0.04058
422.00,0.04069
423.00,0.04150
424.00,0.04539
425.00,0.05022
426.00,0.05729
427.00,0.06842
428.00,0.08527
429.00,0.10647
430.00,0.13062
431.00,0.15071
432.00,0.16512
433.00,0.17889
434.00,0.18947
435.00,0.19414
436.00,0.19645
437.00,0.19769
438.00,0.19853
439.00,0.20060
440.00,0.20026
441.00,0.20266
442.00,0.20139
443.00,0.20304
444.00,0.20368
445.00,0.20199
446.00,0.20230
447.00,0.20348
448.00,0.20357
449.00,0.20453
450.00,0.20468
451.00,0.20635
452.00,0.20624
453.00,0.20720
454.00,0.20720
455.00,0.20925
456.00,0.20959
457.00,0.21138
458.00,0.21175
459.00,0.21321
460.00,0.21565
461.00,0.21629
462.00,0.21755
463.00,0.22143
464.00,0.22121
465.00,0.22480
466.00,0.22411
467.00,0.22905
468.00,0.23011
469.00,0.23225
470.00,0.23268
471.00,0.23550
472.00,0.23872
473.00,0.23893
474.00,0.24165
475.00,0.24227
476.00,0.24603
477.00,0.24700
478.00,0.24846
479.00,0.25189
480.00,0.25476
481.00,0.25542
482.00,0.25825
483.00,0.25954
484.00,0.26260
485.00,0.26635
486.00,0.26818
487.00,0.27120
488.00,0.27275
489.00,0.27473
490.00,0.27885
491.00,0.28116
492.00,0.28172
493.00,0.28296
494.00,0.28595
495.00,0.29130
496.00,0.29266
497.00,0.29611
498.00,0.29641
499.00,0.29917
500.00,0.30025
501.00,0.30338
502.00,0.30602
503.00,0.30876
504.00,0.30844
505.00,0.31356
506.00,0.31881
507.00,0.31827
508.00,0.31931
509.00,0.32424
510.00,0.32573
511.00,0.32597
512.00,0.33273
513.00,0.33180
514.00,0.33422
515.00,0.33433
516.00,0.33717
517.00,0.34063
518.00,0.34247
519.00,0.34286
520.00,0.34765
521.00,0.34641
522.00,0.34983
523.00,0.34785
524.00,0.35122
525.00,0.35228
526.00,0.35512
527.00,0.35604
528.00,0.35685
529.00,0.35827
530.00,0.35826
531.00,0.36115
532.00,0.36149
533.00,0.36042
534.00,0.36213
535.00,0.36541
536.00,0.36414
537.00,0.36480
538.00,0.36625
539.00,0.36411
540.00,0.36591
541.00,0.36501
542.00,0.36978
543.00,0.36471
544.00,0.36850
545.00,0.36636
546.00,0.36978
547.00,0.37014
548.00,0.37151
549.00,0.36889
550.00,0.37132
551.00,0.37058
552.00,0.37227
553.00,0.37324
554.00,0.37477
555.00,0.37267
556.00,0.37728
557.00,0.37725
558.00,0.37772
559.00,0.37885
560.00,0.38140
561.00,0.38257
562.00,0.38686
563.00,0.38795
564.00,0.39032
565.00,0.39222
566.00,0.39646
567.00,0.39894
568.00,0.40286
569.00,0.40779
570.00,0.41094
571.00,0.41420
572.00,0.41971
573.00,0.42547
574.00,0.43306
575.00,0.44185
576.00,0.44690
577.00,0.45469
578.00,0.46201
579.00,0.47013
580.00,0.48028
581.00,0.49072
582.00,0.50355
583.00,0.51602
584.00,0.52772
585.00,0.54438
586.00,0.55716
587.00,0.57368
588.00,0.59304
589.00,0.60848
590.00,0.63516
591.00,0.65536
592.00,0.68055
593.00,0.70498
594.00,0.73159
595.00,0.76078
596.00,0.79599
597.00,0.83200
598.00,0.86632
599.00,0.90556
600.00,0.94818
601.00,0.99492
602.00,1.04055
603.00,1.09109
604.00,1.14908
605.00,1.20697
606.00,1.26920
607.00,1.34032
608.00,1.40857
609.00,1.48321
610.00,1.55887
611.00,1.63947
612.00,1.73752
613.00,1.82981
614.00,1.93650
615.00,2.04501
616.00,2.15968
617.00,2.28861
618.00,2.42302
619.00,2.56083
620.00,2.71225
621.00,2.87353
622.00,3.03277
623.00,3.20125
624.00,3.38086
625.00,3.57686
626.00,3.76226
627.00,3.96434
628.00,4.17439
629.00,4.39061
630.00,4.61797
631.00,4.85373
632.00,5.10054
633.00,5.36231
634.00,5.62505
635.00,5.91998
636.00,6.21567
637.00,6.50007
638.00,6.79908
639.00,7.12646
640.00,7.46358
641.00,7.78688
642.00,8.13855
643.00,8.47198
644.00,8.83859
645.00,9.17749
646.00,9.54031
647.00,9.89219
648.00,10.27033
649.00,10.65170
650.00,11.01299
651.00,11.42954
652.00,11.77670
653.00,12.16560
654.00,12.52905
655.00,12.92692
656.00,13.32036
657.00,13.72970
658.00,14.11885
659.00,14.48186
660.00,14.86835
661.00,15.29882
662.00,15.72862
663.00,16.09265
664.00,16.51658
665.00,16.89407
666.00,17.25878
667.00,17.66954
668.00,18.02816
669.00,18.44107
670.00,18.81432
671.00,19.16689
672.00,19.56287
673.00,19.92289
674.00,20.31100
675.00,20.63373
676.00,21.02663
677.00,21.41785
678.00,21.74495
679.00,22.11495
680.00,22.47702
681.00,22.86910
682.00,23.21145
683.00,23.60038
684.00,23.95248
685.00,24.35277
686.00,24.69066
687.00,25.04320
688.00,25.36226
689.00,25.73813
690.00,26.05096
691.00,26.43747
692.00,26.76459
693.00,27.07246
694.00,27.41709
695.00,27.77252
696.00,28.07275
697.00,28.43869
698.00,28.76882
699.00,29.03573
700.00,29.41673
701.00,29.69572
702.00,30.05166
703.00,30.36166
704.00,30.65952
705.00,31.01476
706.00,31.27868
707.00,31.59083
708.00,31.95314
709.00,32.16474
710.00,32.52159
711.00,32.78008
712.00,33.08448
713.00,33.35965
714.00,33.63245
715.00,33.88664
716.00,34.19777
717.00,34.42124
718.00,34.71003
719.00,34.94371
720.00,35.15424
721.00,35.45446
722.00,35.62630
723.00,35.93861
724.00,36.13296
725.00,36.40096
726.00,36.65404
727.00,36.84922
728.00,37.04873
729.00,37.35231
730.00,37.45824
731.00,37.69079
732.00,37.94755
733.00,38.14637
734.00,38.33646
735.00,38.55446
736.00,38.68040
737.00,38.82317
738.00,38.91396
739.00,39.05935
740.00,39.22507
741.00,39.40068
742.00,39.56396
743.00,39.61764
744.00,39.83186
745.00,40.00331
746.00,40.17928
747.00,40.23930
748.00,40.39458
749.00,40.49708
750.00,40.64586
751.00,40.76506
752.00,40.85600
753.00,40.90301
754.00,41.10916
755.00,41.22509
756.00,41.23535
757.00,41.43599
758.00,41.45234
759.00,41.58405
760.00,41.56460
761.00,41.69875
762.00,41.94478
763.00,41.84460
764.00,42.19907
765.00,42.23994
766.00,42.28600
767.00,42.38145
768.00,42.42021
769.00,42.38366
770.00,42.51567
771.00,42.48780
772.00,42.60536
773.00,42.79308
774.00,42.89660
775.00,42.87527
776.00,42.91184
777.00,43.03341
778.00,43.04624
779.00,43.04303
780.00,43.06424
781.00,43.25179
782.00,43.29167
783.00,43.28978
784.00,43.42144
785.00,43.41462
786.00,43.63129
787.00,43.44913
788.00,43.64560
789.00,43.58263
790.00,43.74138
791.00,43.66397
792.00,43.78091
793.00,43.61136
794.00,43.80861
795.00,43.69844
796.00,43.91078
797.00,43.91608
798.00,43.98499
799.00,44.01706
800.00,43.87638
801.00,43.88726
802.00,44.06006
803.00,43.91642
804.00,43.87818
805.00,44.04233
806.00,43.99664
807.00,43.91884
808.00,43.96173
809.00,43.80190
810.00,43.84611
811.00,43.84814
812.00,44.06859
813.00,44.00673
814.00,44.21821
815.00,44.01893
816.00,43.86676
817.00,44.09386
818.00,44.17152
819.00,43.86014
820.00,43.79734
821.00,43.67123
822.00,43.96070
823.00,43.84801
824.00,43.87831
825.00,43.80846
826.00,43.65647
827.00,43.72267
828.00,43.87007
829.00,43.75112
830.00,43.81868
831.00,43.44796
832.00,43.59972
833.00,43.61240
834.00,43.52838
835.00,43.42174
836.00,43.10803
837.00,43.12669
838.00,43.51792
839.00,43.26764
840.00,43.20800
841.00,43.04551
842.00,43.22622
843.00,42.60022
844.00,43.11285
845.00,42.87185
846.00,43.42723
847.00,43.31752
848.00,43.00960
849.00,42.34340
850.00,42.78094
851.00,42.97860
852.00,42.60463
853.00,41.95172
854.00,42.72460
855.00,42.41235
856.00,42.25459
857.00,42.41865
858.00,41.95464
859.00,42.62108
860.00,41.34845
861.00,42.32662
862.00,41.77648
863.00,42.53292
864.00,42.36301
865.00,42.26608
866.00,42.31362
867.00,42.42391
868.00,41.99400
869.00,43.67697
870.00,40.86158
871.00,42.29651
872.00,40.74270
873.00,42.89210
874.00,41.97459
875.00,41.96666
876.00,42.55724
877.00,41.75796
878.00,40.26633
879.00,41.80132
880.00,43.29379
881.00,41.89165
882.00,42.74856
883.00,42.96435
884.00,43.24434
885.00,41.21261
886.00,40.42586
887.00,39.91852
888.00,41.87355
889.00,40.92737
890.00,40.37437
891.00,42.88478
892.00,44.73067
893.00,41.85790
894.00,40.85030
895.00,43.01210
896.00,46.99908
897.00,41.76379
898.00,40.41380
899.00,45.25257
900.00,39.92523
